trial	ons(s)	stim_id	stim      	cond    	dur 	rt  	acc 	resp    	cresp   
1   	68.6  	1   	5  +  6   	---     	1.85	1.71	1   	odd     	odd     
2   	70.6  	2   	6  +  8   	---     	1.85	0.83	1   	even    	even    
3   	72.6  	3   	8  +  4   	---     	1.85	1.15	1   	even    	even    
trial	ons(s)	stim_id	stim      	cond    	dur 	rt  	acc 	resp    	cresp   
1   	108.6 	1   	9  +  8   	---     	1.851	NR  	0   	NR      	odd     
2   	110.6 	2   	9  +  5   	---     	1.85	0.864	0   	odd     	even    
3   	112.6 	3   	8  +  9   	---     	1.85	0.854	1   	odd     	odd     
trial	ons(s)	stim_id	stim      	cond    	dur 	rt  	acc 	resp    	cresp   
1   	148.6 	1   	9  +  3   	---     	1.85	1.519	1   	even    	even    
2   	150.6 	2   	5  +  6   	---     	1.85	0.783	1   	odd     	odd     
3   	152.6 	3   	9  +  7   	---     	1.85	0.999	0   	odd     	even    
trial	ons(s)	stim_id	stim      	cond    	dur 	rt  	acc 	resp    	cresp   
1   	188.6 	1   	5  +  6   	---     	1.85	1.375	1   	odd     	odd     
2   	190.6 	2   	5  +  7   	---     	1.85	0.888	1   	even    	even    
3   	192.6 	3   	9  +  4   	---     	1.85	1.135	1   	odd     	odd     
trial	ons(s)	stim_id	stim      	cond    	dur 	rt  	acc 	resp    	cresp   
1   	228.6 	1   	7  +  9   	---     	1.85	1.383	1   	even    	even    
2   	230.6 	2   	9  +  4   	---     	1.851	1.022	1   	odd     	odd     
3   	232.6 	3   	9  +  9   	---     	1.851	1.214	1   	even    	even    
trial	ons(s)	stim_id	stim      	cond    	dur 	rt  	acc 	resp    	cresp   
1   	268.6 	1   	8  +  5   	---     	1.851	NR  	0   	NR      	odd     
2   	270.6 	2   	6  +  9   	---     	1.85	1.048	1   	odd     	odd     
3   	272.6 	3   	7  +  7   	---     	1.85	0.752	1   	even    	even    
trial	ons(s)	stim_id	stim      	cond    	dur 	rt  	acc 	resp    	cresp   
1   	308.6 	1   	8  +  3   	---     	1.85	1.505	1   	odd     	odd     
2   	310.6 	2   	9  +  4   	---     	1.85	0.801	1   	odd     	odd     
3   	312.6 	3   	7  +  8   	---     	1.85	1.081	1   	odd     	odd     
trial	ons(s)	stim_id	stim      	cond    	dur 	rt  	acc 	resp    	cresp   
1   	348.6 	1   	9  +  8   	---     	1.85	1.313	1   	odd     	odd     
2   	350.6 	2   	8  +  8   	---     	1.85	0.753	1   	even    	even    
3   	352.6 	3   	9  +  9   	---     	1.85	1.121	1   	even    	even    
trial	ons(s)	stim_id	stim      	cond    	dur 	rt  	acc 	resp    	cresp   
1   	388.6 	1   	9  +  6   	---     	1.85	0.953	1   	odd     	odd     
2   	390.6 	2   	9  +  2   	---     	1.85	1.465	0   	even    	odd     
3   	392.6 	3   	4  +  7   	---     	1.85	0.817	1   	odd     	odd     
trial	ons(s)	stim_id	stim      	cond    	dur 	rt  	acc 	resp    	cresp   
1   	428.6 	1   	5  +  7   	---     	1.85	1.81	1   	even    	even    
2   	430.6 	2   	5  +  6   	---     	1.85	0.649	1   	odd     	odd     
3   	432.6 	3   	7  +  9   	---     	1.85	0.961	1   	even    	even    
trial	ons(s)	stim_id	stim      	cond    	dur 	rt  	acc 	resp    	cresp   
1   	468.6 	1   	5  +  6   	---     	1.85	1.386	1   	odd     	odd     
2   	470.6 	2   	7  +  8   	---     	1.85	0.746	1   	odd     	odd     
3   	472.6 	3   	2  +  9   	---     	1.85	0.618	1   	odd     	odd     
trial	ons(s)	stim_id	stim      	cond    	dur 	rt  	acc 	resp    	cresp   
1   	508.6 	1   	6  +  5   	---     	1.851	NR  	0   	NR      	odd     
2   	510.6 	2   	4  +  7   	---     	1.85	0.186	1   	odd     	odd     
3   	512.6 	3   	9  +  2   	---     	1.851	0.866	1   	odd     	odd     
trial	ons(s)	stim_id	stim      	cond    	dur 	rt  	acc 	resp    	cresp   
1   	548.6 	1   	5  +  9   	---     	1.851	NR  	0   	NR      	even    
2   	550.6 	2   	3  +  9   	---     	1.85	0.867	1   	even    	even    
3   	552.6 	3   	9  +  2   	---     	1.85	0.763	1   	odd     	odd     
trial	ons(s)	stim_id	stim      	cond    	dur 	rt  	acc 	resp    	cresp   
1   	588.6 	1   	6  +  5   	---     	1.85	0.988	1   	odd     	odd     
2   	590.6 	2   	7  +  5   	---     	1.85	0.956	1   	even    	even    
3   	592.6 	3   	9  +  7   	---     	1.85	0.692	0   	odd     	even    
trial	ons(s)	stim_id	stim      	cond    	dur 	rt  	acc 	resp    	cresp   
1   	628.6 	1   	5  +  9   	---     	1.85	1.467	1   	even    	even    
2   	630.6 	2   	6  +  5   	---     	1.85	0.667	1   	odd     	odd     
3   	632.6 	3   	8  +  6   	---     	1.85	0.787	1   	even    	even    
trial	ons(s)	stim_id	stim      	cond    	dur 	rt  	acc 	resp    	cresp   
1   	668.6 	1   	3  +  9   	---     	1.851	1.188	1   	even    	even    
2   	670.6 	2   	8  +  8   	---     	1.851	0.724	1   	even    	even    
3   	672.6 	3   	6  +  5   	---     	1.851	0.764	1   	odd     	odd     
trial	ons(s)	stim_id	stim      	cond    	dur 	rt  	acc 	resp    	cresp   
1   	708.6 	1   	2  +  9   	---     	1.85	0.828	1   	odd     	odd     
2   	710.6 	2   	9  +  6   	---     	1.85	0.988	1   	odd     	odd     
3   	712.6 	3   	4  +  9   	---     	1.85	1.044	1   	odd     	odd     
trial	ons(s)	stim_id	stim      	cond    	dur 	rt  	acc 	resp    	cresp   
1   	748.6 	1   	7  +  6   	---     	1.85	1.589	1   	odd     	odd     
2   	750.6 	2   	7  +  8   	---     	1.85	0.805	1   	odd     	odd     
3   	752.6 	3   	7  +  4   	---     	1.85	0.877	1   	odd     	odd     
trial	ons(s)	stim_id	stim      	cond    	dur 	rt  	acc 	resp    	cresp   
1   	788.6 	1   	6  +  8   	---     	1.851	NR  	0   	NR      	even    
2   	790.6 	2   	6  +  9   	---     	1.85	0.181	0   	even    	odd     
3   	792.6 	3   	9  +  5   	---     	1.85	1.101	1   	even    	even    
trial	ons(s)	stim_id	stim      	cond    	dur 	rt  	acc 	resp    	cresp   
1   	828.6 	1   	8  +  5   	---     	1.851	NR  	0   	NR      	odd     
2   	830.6 	2   	5  +  8   	---     	1.85	1.646	1   	odd     	odd     
3   	832.6 	3   	7  +  4   	---     	1.85	0.782	1   	odd     	odd     
