trial	ons(s)	stim_id	stim      	cond    	dur 	rt  	acc 	resp    	cresp   
1   	67.6  	1   	8  +  6   	---     	1.851	1.36	1   	even    	even    
2   	69.6  	2   	8  +  4   	---     	1.85	0.64	1   	even    	even    
3   	71.6  	3   	7  +  7   	---     	1.85	0.776	1   	even    	even    
trial	ons(s)	stim_id	stim      	cond    	dur 	rt  	acc 	resp    	cresp   
1   	107.5 	1   	2  +  9   	---     	1.85	1.018	1   	odd     	odd     
2   	109.5 	2   	9  +  6   	---     	1.85	0.842	1   	odd     	odd     
3   	111.5 	3   	8  +  7   	---     	1.85	0.794	1   	odd     	odd     
trial	ons(s)	stim_id	stim      	cond    	dur 	rt  	acc 	resp    	cresp   
1   	147.5 	1   	7  +  4   	---     	1.85	1.027	1   	odd     	odd     
2   	149.5 	2   	7  +  5   	---     	1.85	0.982	1   	even    	even    
3   	151.5 	3   	5  +  6   	---     	1.85	0.666	1   	odd     	odd     
trial	ons(s)	stim_id	stim      	cond    	dur 	rt  	acc 	resp    	cresp   
1   	187.5 	1   	5  +  9   	---     	1.851	1.323	1   	even    	even    
2   	189.5 	2   	9  +  9   	---     	1.851	0.963	1   	even    	even    
3   	191.5 	3   	5  +  6   	---     	1.851	0.779	1   	odd     	odd     
trial	ons(s)	stim_id	stim      	cond    	dur 	rt  	acc 	resp    	cresp   
1   	227.5 	1   	9  +  8   	---     	1.85	0.835	1   	odd     	odd     
2   	229.5 	2   	7  +  9   	---     	1.851	0.803	1   	even    	even    
3   	231.5 	3   	4  +  9   	---     	1.85	0.915	1   	odd     	odd     
trial	ons(s)	stim_id	stim      	cond    	dur 	rt  	acc 	resp    	cresp   
1   	267.5 	1   	5  +  7   	---     	1.85	1.531	1   	even    	even    
2   	269.5 	2   	3  +  9   	---     	1.851	0.635	1   	even    	even    
3   	271.5 	3   	6  +  9   	---     	1.85	0.867	1   	odd     	odd     
trial	ons(s)	stim_id	stim      	cond    	dur 	rt  	acc 	resp    	cresp   
1   	307.5 	1   	9  +  8   	---     	1.85	1.043	1   	odd     	odd     
2   	309.5 	2   	4  +  9   	---     	1.85	0.779	1   	odd     	odd     
3   	311.5 	3   	4  +  7   	---     	1.85	0.587	1   	odd     	odd     
trial	ons(s)	stim_id	stim      	cond    	dur 	rt  	acc 	resp    	cresp   
1   	347.5 	1   	6  +  9   	---     	1.851	0.98	1   	odd     	odd     
2   	349.5 	2   	6  +  8   	---     	1.85	0.756	1   	even    	even    
3   	351.5 	2   	6  +  8 (repeat 1)	---     	1.85	0.7 	1   	even    	even    
trial	ons(s)	stim_id	stim      	cond    	dur 	rt  	acc 	resp    	cresp   
1   	387.5 	1   	5  +  9   	---     	1.851	1.581	1   	even    	even    
2   	389.5 	2   	7  +  4   	---     	1.851	0.732	1   	odd     	odd     
3   	391.5 	3   	8  +  4   	---     	1.851	0.684	1   	even    	even    
trial	ons(s)	stim_id	stim      	cond    	dur 	rt  	acc 	resp    	cresp   
1   	427.5 	1   	4  +  7   	---     	1.85	1.02	1   	odd     	odd     
2   	429.5 	2   	9  +  2   	---     	1.851	0.668	1   	odd     	odd     
3   	431.5 	3   	5  +  6   	---     	1.85	0.964	1   	odd     	odd     
trial	ons(s)	stim_id	stim      	cond    	dur 	rt  	acc 	resp    	cresp   
1   	467.5 	1   	4  +  9   	---     	1.85	1.237	1   	odd     	odd     
2   	469.5 	2   	3  +  9   	---     	1.85	0.669	1   	even    	even    
3   	471.5 	1   	4  +  9 (repeat 1)	---     	1.851	0.82	1   	odd     	odd     
trial	ons(s)	stim_id	stim      	cond    	dur 	rt  	acc 	resp    	cresp   
1   	508.5 	1   	9  +  5   	---     	1.85	1.021	1   	even    	even    
2   	510.5 	2   	7  +  4   	---     	1.851	0.605	1   	odd     	odd     
3   	512.5 	3   	8  +  7   	---     	1.851	0.836	1   	odd     	odd     
trial	ons(s)	stim_id	stim      	cond    	dur 	rt  	acc 	resp    	cresp   
1   	547.5 	1   	5  +  7   	---     	1.851	1.022	1   	even    	even    
2   	549.5 	2   	9  +  3   	---     	1.85	0.589	1   	even    	even    
3   	551.5 	3   	7  +  6   	---     	1.85	0.685	1   	odd     	odd     
trial	ons(s)	stim_id	stim      	cond    	dur 	rt  	acc 	resp    	cresp   
1   	587.5 	1   	7  +  7   	---     	1.85	1.142	1   	even    	even    
2   	589.5 	2   	8  +  6   	---     	1.85	0.622	1   	even    	even    
3   	591.5 	3   	7  +  8   	---     	1.851	0.725	1   	odd     	odd     
trial	ons(s)	stim_id	stim      	cond    	dur 	rt  	acc 	resp    	cresp   
1   	627.5 	1   	7  +  8   	---     	1.85	1.535	1   	odd     	odd     
2   	629.5 	2   	9  +  2   	---     	1.85	0.814	1   	odd     	odd     
3   	631.5 	3   	5  +  9   	---     	1.852	0.83	1   	even    	even    
trial	ons(s)	stim_id	stim      	cond    	dur 	rt  	acc 	resp    	cresp   
1   	667.5 	1   	7  +  4   	---     	1.85	1.502	1   	odd     	odd     
2   	669.5 	1   	7  +  4 (repeat 1)	---     	1.85	0.462	1   	odd     	odd     
3   	671.5 	2   	9  +  9   	---     	1.85	0.75	1   	even    	even    
trial	ons(s)	stim_id	stim      	cond    	dur 	rt  	acc 	resp    	cresp   
1   	707.5 	1   	5  +  7   	---     	1.851	1.055	1   	even    	even    
2   	709.5 	2   	5  +  9   	---     	1.85	0.854	1   	even    	even    
3   	711.5 	3   	8  +  5   	---     	1.851	0.816	1   	odd     	odd     
trial	ons(s)	stim_id	stim      	cond    	dur 	rt  	acc 	resp    	cresp   
1   	747.5 	1   	9  +  9   	---     	1.85	1.455	1   	even    	even    
2   	749.5 	2   	5  +  9   	---     	1.851	0.743	1   	even    	even    
3   	751.5 	3   	3  +  8   	---     	1.85	0.719	1   	odd     	odd     
trial	ons(s)	stim_id	stim      	cond    	dur 	rt  	acc 	resp    	cresp   
1   	787.5 	1   	4  +  7   	---     	1.85	0.744	1   	odd     	odd     
2   	789.5 	2   	3  +  9   	---     	1.85	0.696	1   	even    	even    
3   	791.5 	3   	5  +  7   	---     	1.85	0.816	1   	even    	even    
trial	ons(s)	stim_id	stim      	cond    	dur 	rt  	acc 	resp    	cresp   
1   	827.5 	1   	2  +  9   	---     	1.851	0.744	1   	odd     	odd     
2   	829.5 	2   	7  +  6   	---     	1.851	0.615	1   	odd     	odd     
3   	831.5 	3   	5  +  8   	---     	1.851	0.696	1   	odd     	odd     
